<?xml version="1.0" encoding="UTF-8"?>

<List xmlns="http://hl7.org/fhir">
  <id value="ExampleSubmissionSet"/>
  <meta>
    <profile value="https://interop.esante.gouv.fr/ig/fhir/pdsm/StructureDefinition/pdsm-submissionset-comprehensive"/>
  </meta>
  <text>
    <status value="generated"/><div xmlns="http://www.w3.org/1999/xhtml"><p class="res-header-id"><b>Narratif généré : Liste ExampleSubmissionSet</b></p><a name="ExampleSubmissionSet"> </a><a name="hcExampleSubmissionSet"> </a><div style="display: inline-block; background-color: #d9e0e7; padding: 6px; margin: 4px; border: 1px solid #8da1b4; border-radius: 5px; line-height: 60%"><p style="margin-bottom: 0px"/><p style="margin-bottom: 0px">Profil: <a href="StructureDefinition-pdsm-submissionset-comprehensive.html">PDSm SubmissionSet Comprehensive</a></p></div><h2>Dossier de suivi post-opératoire</h2><table class="clstu"><tr><td>Date : 2025-04-30 14:00:00+0100 </td><td>Mode : Working List </td><td>Statut : Current </td><td>Code : Submission Set </td></tr><tr><td>Sujet : <a href="Patient-fr-patient-123.html">Martin Claire  Male, Date de Naissance :1980-01-15</a>Source </td></tr></table><p>note</p><blockquote><div><p>Suivi post-chirurgical – documents cliniques regroupés.</p>
</div></blockquote><table class="grid"><tr style="backgound-color: #eeeeee"><td><b>Éléments</b></td></tr><tr><td><a href="DocumentReference-exemple-pdsm-documentreference.html">DocumentReference : masterIdentifier = UUID:12345678-abcd-1234-abcd-1234567890ab; status = current; type = Résumé de sortie d’hospitalisation; category = Compte-rendu; date = 2025-04-29 12:00:00+0100; description = Compte rendu d’hospitalisation suite à une chirurgie.; securityLabel = Normal</a></td></tr></table><hr/><p><b>Ressources contenues</b></p><hr/><a name="ExampleSubmissionSet/practitionerrole-example"> </a><p class="res-header-id"><b>PractitionerRole #practitionerrole-example</b></p><a name="hcExampleSubmissionSet/practitionerrole-example"> </a><div style="display: inline-block; background-color: #d9e0e7; padding: 6px; margin: 4px; border: 1px solid #8da1b4; border-radius: 5px; line-height: 60%"><p style="margin-bottom: 0px">version : 1; Dernière mise à jour : 2025-04-28 18:19:34+0200; Langue : fr; </p><p style="margin-bottom: 0px">Information Source: <a href="https://annuaire.sante.fr">https://annuaire.sante.fr</a></p><p style="margin-bottom: 0px">Profils: <a href="https://hl7.fr/ig/fhir/core/2.1.0/StructureDefinition-fr-core-practitioner-role.html">FR Core Practitioner Role</a>, <a href="https://interop.esante.gouv.fr/ig/fhir/annuaire/1.1.0/StructureDefinition-as-dp-practitionerrole.html">AS Donnée Publique PractitionerRole Profile</a></p></div><p><b>identifier</b>: <code>https://rpps.esante.gouv.fr</code>/1011848351 (utilisation : official, )</p><p><b>active</b>: true</p><p><b>practitioner</b>: <a href="Practitioner/practitioner-example">Practitioner/practitioner-example</a></p><p><b>organization</b>: <a href="#hcExampleSubmissionSet/org-example">Organization HOPITAL INTERCOMMUNAL DE LA PRESQU'ILE G</a></p><p><b>code</b>: <span title="Codes :{https://mos.esante.gouv.fr/NOS/TRE_R22-GenreActivite/FHIR/TRE-R22-GenreActivite GENR01}">Soignant</span>, <span title="Codes :{https://mos.esante.gouv.fr/NOS/TRE_R23-ModeExercice/FHIR/TRE-R23-ModeExercice L}">Libéral,indép,artisan,commerç</span>, <span title="Codes :{https://mos.esante.gouv.fr/NOS/TRE_R21-Fonction/FHIR/TRE-R21-Fonction FON-05}">Adjoint</span></p><hr/><a name="ExampleSubmissionSet/org-example"> </a><p class="res-header-id"><b>Organisation #org-example</b></p><a name="hcExampleSubmissionSet/org-example"> </a><div style="display: inline-block; background-color: #d9e0e7; padding: 6px; margin: 4px; border: 1px solid #8da1b4; border-radius: 5px; line-height: 60%"><p style="margin-bottom: 0px">version : 1; Dernière mise à jour : 2025-04-28 19:35:45+0200; Langue : fr; </p><p style="margin-bottom: 0px">Information Source: <a href="https://annuaire.sante.fr">https://annuaire.sante.fr</a></p><p style="margin-bottom: 0px">Profils: <a href="https://hl7.fr/ig/fhir/core/2.1.0/StructureDefinition-fr-core-organization.html">FR Core Organization Profile</a>, <a href="https://interop.esante.gouv.fr/ig/fhir/annuaire/1.1.0/StructureDefinition-as-dp-organization.html">AS Donnée Publique Organization Profile</a></p></div><p><b>identifier</b>: Identification nationale de structure définie par l’ANS dans le CI_SIS/2264403106 (utilisation : official, ), Identification de l'organisation au SIREN/264403106 (utilisation : official, )</p><p><b>active</b>: true</p><p><b>type</b>: <span title="Codes :{https://hl7.fr/ig/fhir/core/CodeSystem/fr-core-cs-v2-3307 LEGAL-ENTITY}">Entité légale</span>, <span title="Codes :{https://mos.esante.gouv.fr/NOS/TRE_R02-SecteurActivite/FHIR/TRE-R02-SecteurActivite SA43}">Secteur non défini</span></p><p><b>name</b>: HOPITAL INTERCOMMUNAL DE LA PRESQU'ILE G</p></div>
  </text>
  <contained>
    <PractitionerRole>
      <id value="practitionerrole-example"/>
      <meta>
        <versionId value="1"/>
        <lastUpdated value="2025-04-28T18:19:34.908+02:00"/>
        <source value="https://annuaire.sante.fr"/>
        <profile value="https://hl7.fr/ig/fhir/core/StructureDefinition/fr-core-practitioner-role"/>
        <profile value="https://interop.esante.gouv.fr/ig/fhir/annuaire/StructureDefinition/as-dp-practitionerrole"/>
      </meta>
      <language value="fr"/>
      <identifier>
        <use value="official"/>
        <system value="https://rpps.esante.gouv.fr"/>
        <value value="1011848351"/>
      </identifier>
      <active value="true"/>
      <practitioner>
        <reference value="Practitioner/practitioner-example"/>
      </practitioner>
      <organization>
        <reference value="#org-example"/>
      </organization>
      <code>
        <coding>
          <system value="https://mos.esante.gouv.fr/NOS/TRE_R22-GenreActivite/FHIR/TRE-R22-GenreActivite"/>
          <code value="GENR01"/>
        </coding>
      </code>
      <code>
        <coding>
          <system value="https://mos.esante.gouv.fr/NOS/TRE_R23-ModeExercice/FHIR/TRE-R23-ModeExercice"/>
          <code value="L"/>
        </coding>
      </code>
      <code>
        <coding>
          <system value="https://mos.esante.gouv.fr/NOS/TRE_R21-Fonction/FHIR/TRE-R21-Fonction"/>
          <code value="FON-05"/>
        </coding>
      </code>
    </PractitionerRole>
  </contained>
  <contained>
    <Organization>
      <id value="org-example"/>
      <meta>
        <extension url="https://interop.esante.gouv.fr/ig/fhir/annuaire/StructureDefinition/as-ext-data-trace">
          <extension url="systeme-information">
            <valueCode value="CG"/>
          </extension>
        </extension>
        <versionId value="1"/>
        <lastUpdated value="2025-04-28T19:35:45.507+02:00"/>
        <source value="https://annuaire.sante.fr"/>
        <profile value="https://hl7.fr/ig/fhir/core/StructureDefinition/fr-core-organization"/>
        <profile value="https://interop.esante.gouv.fr/ig/fhir/annuaire/StructureDefinition/as-dp-organization"/>
      </meta>
      <language value="fr"/>
      <identifier>
        <use value="official"/>
        <type>
          <coding>
            <system value="https://hl7.fr/ig/fhir/core/CodeSystem/fr-core-cs-v2-0203"/>
            <code value="IDNST"/>
          </coding>
        </type>
        <system value="urn:oid:1.2.250.1.71.4.2.2"/>
        <value value="2264403106"/>
      </identifier>
      <identifier>
        <use value="official"/>
        <type>
          <coding>
            <system value="https://hl7.fr/ig/fhir/core/CodeSystem/fr-core-cs-v2-0203"/>
            <code value="SIREN"/>
          </coding>
        </type>
        <system value="https://sirene.fr"/>
        <value value="264403106"/>
      </identifier>
      <active value="true"/>
      <type>
        <extension url="https://interop.esante.gouv.fr/ig/fhir/annuaire/StructureDefinition/as-ext-organization-types">
          <valueCode value="organizationType"/>
        </extension>
        <coding>
          <system value="https://hl7.fr/ig/fhir/core/CodeSystem/fr-core-cs-v2-3307"/>
          <code value="LEGAL-ENTITY"/>
        </coding>
      </type>
      <type>
        <extension url="https://interop.esante.gouv.fr/ig/fhir/annuaire/StructureDefinition/as-ext-organization-types">
          <valueCode value="secteurActiviteRASS"/>
        </extension>
        <coding>
          <system value="https://mos.esante.gouv.fr/NOS/TRE_R02-SecteurActivite/FHIR/TRE-R02-SecteurActivite"/>
          <code value="SA43"/>
        </coding>
      </type>
      <name value="HOPITAL INTERCOMMUNAL DE LA PRESQU'ILE G"/>
    </Organization>
  </contained>
  <extension url="https://profiles.ihe.net/ITI/MHD/StructureDefinition/ihe-designationType">
    <valueCodeableConcept>
      <coding>
        <system value="https://mos.esante.gouv.fr/NOS/TRE_R02-SecteurActivite/FHIR/TRE-R02-SecteurActivite"/>
        <code value="SA05"/>
        <display value="Centre de santé"/>
      </coding>
    </valueCodeableConcept>
  </extension>
  <extension url="https://profiles.ihe.net/ITI/MHD/StructureDefinition/ihe-sourceId">
    <valueIdentifier>
      <system value="urn:oid:1.2.250.1.213.1.1.1"/>
      <value value="SRC-01"/>
    </valueIdentifier>
  </extension>
  <extension url="https://interop.esante.gouv.fr/ig/fhir/pdsm/StructureDefinition/pdsm-ext-is-archived">
    <valueBoolean value="false"/>
  </extension>
  <extension url="https://interop.esante.gouv.fr/ig/fhir/pdsm/StructureDefinition/pdsm-ext-intended-recipient">
    <valueReference>
      <reference value="#practitionerrole-example"/>
    </valueReference>
  </extension>
  <identifier>
    <system value="urn:ietf:rfc:3986"/>
    <value value="urn:uuid:11111111-aaaa-bbbb-cccc-222222222222"/>
  </identifier>
  <identifier>
    <system value="urn:ietf:rfc:3986"/>
    <value value="urn:uuid:33333333-dddd-eeee-ffff-444444444444"/>
  </identifier>
  <status value="current"/>
  <mode value="working"/>
  <title value="Dossier de suivi post-opératoire"/>
  <code>
    <coding>
      <system value="https://profiles.ihe.net/ITI/MHD/CodeSystem/MHDlistTypes"/>
      <code value="submissionset"/>
      <display value="Submission Set"/>
    </coding>
  </code>
  <subject>
    <reference value="Patient/fr-patient-123"/>
  </subject>
  <date value="2025-04-30T14:00:00+01:00"/>
  <source>
    <extension url="https://profiles.ihe.net/ITI/MHD/StructureDefinition/ihe-authorOrg">
      <valueReference>
        <reference value="#org-example"/>
      </valueReference>
    </extension>
    <reference value="#practitionerrole-example"/>
  </source>
  <note>
    <text value="Suivi post-chirurgical – documents cliniques regroupés."/>
  </note>
  <entry>
    <item>
      <reference value="DocumentReference/exemple-pdsm-documentreference"/>
    </item>
  </entry>
</List>