{
  "resourceType" : "List",
  "id" : "ExampleSubmissionSet",
  "meta" : {
    "profile" : ["https://interop.esante.gouv.fr/ig/fhir/pdsm/StructureDefinition/pdsm-submissionset-comprehensive"]
  },
  "text" : {
    "status" : "generated",
    "div" : "<div xmlns=\"http://www.w3.org/1999/xhtml\"><p class=\"res-header-id\"><b>Generated Narrative: List ExampleSubmissionSet</b></p><a name=\"ExampleSubmissionSet\"> </a><a name=\"hcExampleSubmissionSet\"> </a><a name=\"ExampleSubmissionSet-fr-FR\"> </a><div style=\"display: inline-block; background-color: #d9e0e7; padding: 6px; margin: 4px; border: 1px solid #8da1b4; border-radius: 5px; line-height: 60%\"><p style=\"margin-bottom: 0px\"/><p style=\"margin-bottom: 0px\">Profil: <a href=\"StructureDefinition-pdsm-submissionset-comprehensive.html\">PDSm SubmissionSet Comprehensive</a></p></div><h2>Dossier de suivi post-opératoire</h2><table class=\"clstu\"><tr><td>Date : 2025-04-30 14:00:00+0100 </td><td>Mode : Working List </td><td>Statut : Current </td><td>Code: Submission Set </td></tr><tr><td>Sujet : <a href=\"Patient-fr-patient-123.html\">Martin Claire  Male, Date de Naissance :1980-01-15</a>Source </td></tr></table>Suivi post-chirurgical – documents cliniques regroupés.<table class=\"grid\"><tr style=\"backgound-color: #eeeeee\"><td><b>Items</b></td></tr><tr><td><a href=\"DocumentReference-exemple-pdsm-documentreference.html\">DocumentReference : masterIdentifier = UUID:12345678-abcd-1234-abcd-1234567890ab; status = current; type = Résumé de sortie d’hospitalisation; category = Compte-rendu; date = 2025-04-29 12:00:00+0100; description = Compte rendu d’hospitalisation suite à une chirurgie.; securityLabel = Normal</a></td></tr></table><hr/><p><b>Ressources contenues</b></p><hr/><a name=\"ExampleSubmissionSet/practitionerrole-example\"> </a><p class=\"res-header-id\"><b>PractitionerRole #practitionerrole-example</b></p><a name=\"hcExampleSubmissionSet/practitionerrole-example\"> </a><a name=\"ExampleSubmissionSet/practitionerrole-example-fr-FR\"> </a><div style=\"display: inline-block; background-color: #d9e0e7; padding: 6px; margin: 4px; border: 1px solid #8da1b4; border-radius: 5px; line-height: 60%\"><p style=\"margin-bottom: 0px\">version: 1; Last updated: 2025-04-28 18:19:34+0200; Language: fr; </p><p style=\"margin-bottom: 0px\">Information Source: <a href=\"https://annuaire.sante.fr\">https://annuaire.sante.fr</a></p><p style=\"margin-bottom: 0px\">Profils: <code>https://hl7.fr/ig/fhir/core/StructureDefinition/fr-core-practitioner-role</code>, <a href=\"https://interop.esante.gouv.fr/ig/fhir/annuaire/1.0.1/StructureDefinition-as-dp-practitionerrole.html\">AS Donnée Publique PractitionerRole Profile</a></p></div><p><b>identifier</b>: <code>https://rpps.esante.gouv.fr</code>/1011848351\u00a0(use:\u00a0official,\u00a0)</p><p><b>active</b>: true</p><p><b>practitioner</b>: <a href=\"Practitioner/practitioner-example\">Practitioner/practitioner-example</a></p><p><b>organization</b>: <a href=\"#hcExampleSubmissionSet/org-example\">Organization HOPITAL INTERCOMMUNAL DE LA PRESQU'ILE G</a></p><p><b>code</b>: <span title=\"Codes:{https://mos.esante.gouv.fr/NOS/TRE_R22-GenreActivite/FHIR/TRE-R22-GenreActivite GENR01}\">Activité de soin et de pharmacie</span>, <span title=\"Codes:{https://mos.esante.gouv.fr/NOS/TRE_R23-ModeExercice/FHIR/TRE-R23-ModeExercice L}\">Libéral, indépendant, artisan, commerçant</span>, <span title=\"Codes:{https://mos.esante.gouv.fr/NOS/TRE_R21-Fonction/FHIR/TRE-R21-Fonction FON-05}\">Adjoint</span></p><hr/><a name=\"ExampleSubmissionSet/org-example\"> </a><p class=\"res-header-id\"><b>Organization #org-example</b></p><a name=\"hcExampleSubmissionSet/org-example\"> </a><a name=\"ExampleSubmissionSet/org-example-fr-FR\"> </a><div style=\"display: inline-block; background-color: #d9e0e7; padding: 6px; margin: 4px; border: 1px solid #8da1b4; border-radius: 5px; line-height: 60%\"><p style=\"margin-bottom: 0px\">version: 1; Last updated: 2025-04-28 19:35:45+0200; Language: fr; </p><p style=\"margin-bottom: 0px\">Information Source: <a href=\"https://annuaire.sante.fr\">https://annuaire.sante.fr</a></p><p style=\"margin-bottom: 0px\">Profils: <a href=\"https://hl7.fr/ig/fhir/core/2.0.1/StructureDefinition-fr-core-organization.html\">FR Core Organization Profile</a>, <a href=\"https://interop.esante.gouv.fr/ig/fhir/annuaire/1.0.1/StructureDefinition-as-dp-organization.html\">AS Donnée Publique Organization Profile</a></p></div><p><b>identifier</b>: Identification nationale de structure définie par l’ASIP-SANTE dans le CI_SIS/2264403106\u00a0(use:\u00a0official,\u00a0), Identification de l'organisation au SIREN/264403106\u00a0(use:\u00a0official,\u00a0)</p><p><b>active</b>: true</p><p><b>type</b>: <span title=\"Codes:{https://hl7.fr/ig/fhir/core/CodeSystem/fr-core-cs-v2-3307 LEGAL-ENTITY}\">Entité légale</span>, <span title=\"Codes:{https://mos.esante.gouv.fr/NOS/TRE_R02-SecteurActivite/FHIR/TRE-R02-SecteurActivite SA43}\">Secteur non défini</span></p><p><b>name</b>: HOPITAL INTERCOMMUNAL DE LA PRESQU'ILE G</p></div>"
  },
  "contained" : [{
    "resourceType" : "PractitionerRole",
    "id" : "practitionerrole-example",
    "meta" : {
      "versionId" : "1",
      "lastUpdated" : "2025-04-28T18:19:34.908+02:00",
      "source" : "https://annuaire.sante.fr",
      "profile" : ["https://hl7.fr/ig/fhir/core/StructureDefinition/fr-core-practitioner-role",
      "https://interop.esante.gouv.fr/ig/fhir/annuaire/StructureDefinition/as-dp-practitionerrole"]
    },
    "language" : "fr",
    "identifier" : [{
      "use" : "official",
      "system" : "https://rpps.esante.gouv.fr",
      "value" : "1011848351"
    }],
    "active" : true,
    "practitioner" : {
      "reference" : "Practitioner/practitioner-example"
    },
    "organization" : {
      "reference" : "#org-example"
    },
    "code" : [{
      "coding" : [{
        "system" : "https://mos.esante.gouv.fr/NOS/TRE_R22-GenreActivite/FHIR/TRE-R22-GenreActivite",
        "code" : "GENR01"
      }]
    },
    {
      "coding" : [{
        "system" : "https://mos.esante.gouv.fr/NOS/TRE_R23-ModeExercice/FHIR/TRE-R23-ModeExercice",
        "code" : "L"
      }]
    },
    {
      "coding" : [{
        "system" : "https://mos.esante.gouv.fr/NOS/TRE_R21-Fonction/FHIR/TRE-R21-Fonction",
        "code" : "FON-05"
      }]
    }]
  },
  {
    "resourceType" : "Organization",
    "id" : "org-example",
    "meta" : {
      "extension" : [{
        "extension" : [{
          "url" : "systeme-information",
          "valueCode" : "CG"
        }],
        "url" : "https://interop.esante.gouv.fr/ig/fhir/annuaire/StructureDefinition/as-ext-data-trace"
      }],
      "versionId" : "1",
      "lastUpdated" : "2025-04-28T19:35:45.507+02:00",
      "source" : "https://annuaire.sante.fr",
      "profile" : ["https://hl7.fr/ig/fhir/core/StructureDefinition/fr-core-organization",
      "https://interop.esante.gouv.fr/ig/fhir/annuaire/StructureDefinition/as-dp-organization"]
    },
    "language" : "fr",
    "identifier" : [{
      "use" : "official",
      "type" : {
        "coding" : [{
          "system" : "https://hl7.fr/ig/fhir/core/CodeSystem/fr-core-cs-v2-0203",
          "code" : "IDNST"
        }]
      },
      "system" : "urn:oid:1.2.250.1.71.4.2.2",
      "value" : "2264403106"
    },
    {
      "use" : "official",
      "type" : {
        "coding" : [{
          "system" : "https://hl7.fr/ig/fhir/core/CodeSystem/fr-core-cs-v2-0203",
          "code" : "SIREN"
        }]
      },
      "system" : "https://sirene.fr",
      "value" : "264403106"
    }],
    "active" : true,
    "type" : [{
      "extension" : [{
        "url" : "https://interop.esante.gouv.fr/ig/fhir/annuaire/StructureDefinition/as-ext-organization-types",
        "valueCode" : "organizationType"
      }],
      "coding" : [{
        "system" : "https://hl7.fr/ig/fhir/core/CodeSystem/fr-core-cs-v2-3307",
        "code" : "LEGAL-ENTITY"
      }]
    },
    {
      "extension" : [{
        "url" : "https://interop.esante.gouv.fr/ig/fhir/annuaire/StructureDefinition/as-ext-organization-types",
        "valueCode" : "secteurActiviteRASS"
      }],
      "coding" : [{
        "system" : "https://mos.esante.gouv.fr/NOS/TRE_R02-SecteurActivite/FHIR/TRE-R02-SecteurActivite",
        "code" : "SA43"
      }]
    }],
    "name" : "HOPITAL INTERCOMMUNAL DE LA PRESQU'ILE G"
  }],
  "extension" : [{
    "url" : "https://profiles.ihe.net/ITI/MHD/StructureDefinition/ihe-designationType",
    "valueCodeableConcept" : {
      "coding" : [{
        "system" : "https://mos.esante.gouv.fr/NOS/TRE_R02-SecteurActivite/FHIR/TRE-R02-SecteurActivite",
        "code" : "SA05",
        "display" : "Centre de santé"
      }]
    }
  },
  {
    "url" : "https://profiles.ihe.net/ITI/MHD/StructureDefinition/ihe-sourceId",
    "valueIdentifier" : {
      "system" : "urn:oid:1.2.250.1.213.1.1.1",
      "value" : "SRC-01"
    }
  },
  {
    "url" : "https://interop.esante.gouv.fr/ig/fhir/pdsm/StructureDefinition/pdsm-ext-is-archived",
    "valueBoolean" : false
  },
  {
    "url" : "https://interop.esante.gouv.fr/ig/fhir/pdsm/StructureDefinition/pdsm-ext-intended-recipient",
    "valueReference" : {
      "reference" : "#practitionerrole-example"
    }
  }],
  "identifier" : [{
    "system" : "urn:ietf:rfc:3986",
    "value" : "urn:uuid:11111111-aaaa-bbbb-cccc-222222222222"
  },
  {
    "system" : "urn:ietf:rfc:3986",
    "value" : "urn:uuid:33333333-dddd-eeee-ffff-444444444444"
  }],
  "status" : "current",
  "mode" : "working",
  "title" : "Dossier de suivi post-opératoire",
  "code" : {
    "coding" : [{
      "system" : "https://profiles.ihe.net/ITI/MHD/CodeSystem/MHDlistTypes",
      "code" : "submissionset",
      "display" : "Submission Set"
    }]
  },
  "subject" : {
    "reference" : "Patient/fr-patient-123"
  },
  "date" : "2025-04-30T14:00:00+01:00",
  "source" : {
    "extension" : [{
      "url" : "https://profiles.ihe.net/ITI/MHD/StructureDefinition/ihe-authorOrg",
      "valueReference" : {
        "reference" : "#org-example"
      }
    }],
    "reference" : "#practitionerrole-example"
  },
  "note" : [{
    "text" : "Suivi post-chirurgical – documents cliniques regroupés."
  }],
  "entry" : [{
    "item" : {
      "reference" : "DocumentReference/exemple-pdsm-documentreference"
    }
  }]
}